Folder: SignalChaser/discord_bot/crypto_data

Note: README.md
# SignalChaser
Repo containing the code files for material covered in my videos. 

Folder Structure
* Strategies
  * Crypto Momentum Breakout 
* Tool / Streamlit Seasonal Analytics Dashboard "Pulse Analytics"

File: xrd_usd_hourly_data.csv
timestamp,price_usd
2024-11-04 00:00:00,0.01521
2024-11-04 03:00:00,0.0151625
2024-11-04 06:00:00,0.0151482
2024-11-04 09:00:00,0.0150538
2024-11-04 12:00:00,0.0150088
2024-11-04 15:00:00,0.0148954
2024-11-04 18:00:00,0.0146164
2024-11-04 21:00:00,0.0145416
2024-11-05 00:00:00,0.0146334
2024-11-05 03:00:00,0.0146336
2024-11-05 06:00:00,0.0147077
2024-11-05 09:00:00,0.0146826
2024-11-05 12:00:00,0.0146233
2024-11-05 15:00:00,0.0146759
2024-11-05 18:00:00,0.0148056
2024-11-05 21:00:00,0.0146813
2024-11-06 00:00:00,0.0149989
2024-11-06 03:00:00,0.0154389
2024-11-06 06:00:00,0.0157052
2024-11-06 09:00:00,0.0151221
2024-11-06 12:00:00,0.0152483
2024-11-06 15:00:00,0.0154971
2024-11-06 18:00:00,0.0156164
2024-11-06 21:00:00,0.0157145
2024-11-07 00:00:00,0.0157118
2024-11-07 03:00:00,0.015987
2024-11-07 06:00:00,0.0158136
2024-11-07 09:00:00,0.0156689
2024-11-07 12:00:00,0.0157166
2024-11-07 15:00:00,0.0158723
2024-11-07 18:00:00,0.0159782
2024-11-07 21:00:00,0.0162194
2024-11-08 00:00:00,0.0163653
2024-11-08 03:00:00,0.016178
2024-11-08 06:00:00,0.0161774
2024-11-08 09:00:00,0.0160144
2024-11-08 12:00:00,0.0159676
2024-11-08 15:00:00,0.0159633
2024-11-08 18:00:00,0.0160975
2024-11-08 21:00:00,0.016102
2024-11-09 00:00:00,0.016191
2024-11-09 03:00:00,0.0163069
2024-11-09 06:00:00,0.0163994
2024-11-09 09:00:00,0.0164524
2024-11-09 12:00:00,0.01628
2024-11-09 15:00:00,0.0162989
2024-11-09 18:00:00,0.0163397
2024-11-09 21:00:00,0.0163708
2024-11-10 00:00:00,0.0165434
2024-11-10 03:00:00,0.0165291
2024-11-10 06:00:00,0.0166734
2024-11-10 09:00:00,0.016708
2024-11-10 12:00:00,0.016909
2024-11-10 15:00:00,0.0170382
2024-11-10 18:00:00,0.0174296
2024-11-10 21:00:00,0.0172227
2024-11-11 00:00:00,0.0174101
2024-11-11 03:00:00,0.0179877
2024-11-11 06:00:00,0.0177889
2024-11-11 09:00:00,0.0178079
2024-11-11 12:00:00,0.0174267
2024-11-11 15:00:00,0.0174565
2024-11-11 18:00:00,0.0173351
2024-11-11 21:00:00,0.0173763
2024-11-12 00:00:00,0.0173183
2024-11-12 03:00:00,0.0167181
2024-11-12 06:00:00,0.0165055
2024-11-12 09:00:00,0.0161874
2024-11-12 12:00:00,0.0157621
2024-11-12 15:00:00,0.0157587
2024-11-12 18:00:00,0.0162033
2024-11-12 21:00:00,0.0161019
2024-11-13 00:00:00,0.0163889
2024-11-13 03:00:00,0.0162374
2024-11-13 06:00:00,0.0160117
2024-11-13 09:00:00,0.0160869
2024-11-13 12:00:00,0.0163088
2024-11-13 15:00:00,0.0167277
2024-11-13 18:00:00,0.0167495
2024-11-13 21:00:00,0.0161314
2024-11-14 00:00:00,0.0164474
2024-11-14 03:00:00,0.0164739
2024-11-14 06:00:00,0.0164334
2024-11-14 09:00:00,0.0165649
2024-11-14 12:00:00,0.0165183
2024-11-14 15:00:00,0.0160998
2024-11-14 18:00:00,0.0161243
2024-11-14 21:00:00,0.0160055
2024-11-15 00:00:00,0.0160561
2024-11-15 03:00:00,0.0159188
2024-11-15 06:00:00,0.0158502
2024-11-15 09:00:00,0.0159996
2024-11-15 12:00:00,0.0159835
2024-11-15 15:00:00,0.0158405
2024-11-15 18:00:00,0.015843
2024-11-15 21:00:00,0.0161023
2024-11-16 00:00:00,0.0159885
2024-11-16 03:00:00,0.0160373
2024-11-16 06:00:00,0.0160881
2024-11-16 09:00:00,0.0160383
2024-11-16 12:00:00,0.015994
2024-11-16 15:00:00,0.0160144
2024-11-16 18:00:00,0.0163799
2024-11-16 21:00:00,0.0164222
2024-11-17 00:00:00,0.0163619
2024-11-17 03:00:00,0.0162201
2024-11-17 06:00:00,0.0163398
2024-11-17 09:00:00,0.0165851
2024-11-17 12:00:00,0.016513
2024-11-17 15:00:00,0.0163059
2024-11-17 18:00:00,0.0163574
2024-11-17 21:00:00,0.0162484
2024-11-18 00:00:00,0.016435
2024-11-18 03:00:00,0.0165117
2024-11-18 06:00:00,0.0165955
2024-11-18 09:00:00,0.0165414
2024-11-18 12:00:00,0.0164966
2024-11-18 15:00:00,0.0167246
2024-11-18 18:00:00,0.0169527
2024-11-18 21:00:00,0.0173434
2024-11-19 00:00:00,0.0172271
2024-11-19 03:00:00,0.0171882
2024-11-19 06:00:00,0.0171716
2024-11-19 09:00:00,0.0170328
2024-11-19 12:00:00,0.0171188
2024-11-19 15:00:00,0.0171439
2024-11-19 18:00:00,0.0172864
2024-11-19 21:00:00,0.0167568
2024-11-20 00:00:00,0.0166226
2024-11-20 03:00:00,0.0164289
2024-11-20 06:00:00,0.0163728
2024-11-20 09:00:00,0.0164137
2024-11-20 12:00:00,0.0162699
2024-11-20 15:00:00,0.0163654
2024-11-20 18:00:00,0.016595
2024-11-20 21:00:00,0.0164941
2024-11-21 00:00:00,0.0166926
2024-11-21 03:00:00,0.0166238
2024-11-21 06:00:00,0.0168586
2024-11-21 09:00:00,0.0168596
2024-11-21 12:00:00,0.0170514
2024-11-21 15:00:00,0.0168924
2024-11-21 18:00:00,0.017306
2024-11-21 21:00:00,0.0170583
2024-11-22 00:00:00,0.0172302
2024-11-22 03:00:00,0.0174212
2024-11-22 06:00:00,0.0174232
2024-11-22 09:00:00,0.0176816
2024-11-22 12:00:00,0.0181427
2024-11-22 15:00:00,0.018688
2024-11-22 18:00:00,0.0196408
2024-11-22 21:00:00,0.0199918
2024-11-23 00:00:00,0.0206534
2024-11-23 03:00:00,0.0217041
2024-11-23 06:00:00,0.021678
2024-11-23 09:00:00,0.0220459
2024-11-23 12:00:00,0.0223882
2024-11-23 15:00:00,0.022532
2024-11-23 18:00:00,0.0221545
2024-11-23 21:00:00,0.0221576
2024-11-24 00:00:00,0.0222835
2024-11-24 03:00:00,0.0222492
2024-11-24 06:00:00,0.0222618
2024-11-24 09:00:00,0.0219815
2024-11-24 12:00:00,0.0211375
2024-11-24 15:00:00,0.0206774
2024-11-24 18:00:00,0.0207012
2024-11-24 21:00:00,0.0209956
2024-11-25 00:00:00,0.0213258
2024-11-25 03:00:00,0.0214558
2024-11-25 06:00:00,0.0216269
2024-11-25 09:00:00,0.022253
2024-11-25 12:00:00,0.0226224
2024-11-25 15:00:00,0.0218206
2024-11-25 18:00:00,0.0219234
2024-11-25 21:00:00,0.0219639
2024-11-26 00:00:00,0.0226207
2024-11-26 03:00:00,0.0245263
2024-11-26 06:00:00,0.0242463
2024-11-26 09:00:00,0.0235619
2024-11-26 12:00:00,0.0230951
2024-11-26 15:00:00,0.0248259
2024-11-26 18:00:00,0.0244227
2024-11-26 21:00:00,0.0235837
2024-11-27 00:00:00,0.0240447
2024-11-27 03:00:00,0.0253448
2024-11-27 06:00:00,0.0258159
2024-11-27 09:00:00,0.0264071
2024-11-27 12:00:00,0.0251711
2024-11-27 15:00:00,0.0280495
2024-11-27 18:00:00,0.0293934
2024-11-27 21:00:00,0.0286099
2024-11-28 00:00:00,0.0275481
2024-11-28 03:00:00,0.0271965
2024-11-28 06:00:00,0.0267101
2024-11-28 09:00:00,0.0282843
2024-11-28 12:00:00,0.0291384
2024-11-28 15:00:00,0.0284156
2024-11-28 18:00:00,0.0275831
2024-11-28 21:00:00,0.0273591
2024-11-29 00:00:00,0.0267899
2024-11-29 03:00:00,0.026617
2024-11-29 06:00:00,0.0250996
2024-11-29 09:00:00,0.027394
2024-11-29 12:00:00,0.0285278
2024-11-29 15:00:00,0.0298414
2024-11-29 18:00:00,0.0300306
2024-11-29 21:00:00,0.0310163
2024-11-30 00:00:00,0.0296617
2024-11-30 03:00:00,0.0290743
2024-11-30 06:00:00,0.0293117
2024-11-30 09:00:00,0.0289762
2024-11-30 12:00:00,0.0289604
2024-11-30 15:00:00,0.0287308
2024-11-30 18:00:00,0.0288909
2024-11-30 21:00:00,0.0304627
2024-12-01 00:00:00,0.030176
2024-12-01 03:00:00,0.0300386
2024-12-01 06:00:00,0.0311374
2024-12-01 09:00:00,0.0304426
2024-12-01 12:00:00,0.0303417
2024-12-01 15:00:00,0.0302556
2024-12-01 18:00:00,0.0299544
2024-12-01 21:00:00,0.0301313
2024-12-02 00:00:00,0.0299099
2024-12-02 03:00:00,0.0297325
2024-12-02 06:00:00,0.0289697
2024-12-02 09:00:00,0.0283859
2024-12-02 12:00:00,0.0285711
2024-12-02 15:00:00,0.0291668
2024-12-02 18:00:00,0.0290523
2024-12-02 21:00:00,0.0292385
2024-12-03 00:00:00,0.0296946
2024-12-03 03:00:00,0.0302205
2024-12-03 06:00:00,0.0310113
2024-12-03 09:00:00,0.0311206
2024-12-03 12:00:00,0.0333019
2024-12-03 15:00:00,0.0324118
2024-12-03 18:00:00,0.0322511
2024-12-03 21:00:00,0.0324369
2024-12-04 00:00:00,0.0329748